"RAC Spectrometer"
29	510	650	5
510	0.
515	1.
520	1.
525	1.
530	0.
535	0.
540	0.
545	0.
550	0.
555	0.
560	0.
565	0.
570	0.
575	0.
580	0.
585	0.
590	0.
595	0.
600	0.
605	0.
610	0.
615	0.
620	0.
625	0.
630	0.
635	1.
640	1.
645	1.
650	0.
